
subjno	subjini	practice	trial	Relation	object	corr_resp	subj_resp	GradedRes	rt
61	wzh	1	1	nonobject	3	nonobject	nil	99	4992.876
61	wzh	1	2	both	2	object	nonobject	0	417.500
61	wzh	1	3	unrelated	2	object	object	1	1085.395
61	wzh	1	4	context	2	object	object	1	734.717
61	wzh	1	5	nonobject	2	nonobject	nonobject	1	1168.945
61	wzh	1	6	context	1	object	object	1	701.387
61	wzh	1	7	unrelated	1	object	object	1	768.260
61	wzh	1	8	nonobject	1	nonobject	nonobject	1	718.037
61	wzh	1	9	both	1	object	object	1	985.251
61	wzh	1	10	semantic	2	object	object	1	1202.330
61	wzh	1	11	nonobject	4	nonobject	nonobject	1	851.666
61	wzh	1	12	semantic	1	object	object	1	667.982
61	wzh	2	1	semantic	56	object	nonobject	0	768.177
61	wzh	2	2	nonobject	1	nonobject	object	0	868.364
61	wzh	2	3	context	72	object	object	1	834.967
61	wzh	2	4	semantic	13	object	object	1	784.864
61	wzh	2	5	context	71	object	object	1	1402.717
61	wzh	2	6	semantic	24	object	object	1	768.144
61	wzh	2	7	nonobject	24	nonobject	nonobject	1	1135.542
61	wzh	2	8	nonobject	28	nonobject	object	0	1386.011
61	wzh	2	9	unrelated	9	object	object	1	1519.576
61	wzh	2	10	context	32	object	object	1	1870.278
61	wzh	2	11	context	59	object	nonobject	0	1035.341
61	wzh	2	12	both	16	object	object	1	1753.385
61	wzh	2	13	unrelated	57	object	object	1	1319.226
61	wzh	2	14	nonobject	12	nonobject	nonobject	1	1352.581
61	wzh	2	15	nonobject	16	nonobject	nonobject	1	868.408
61	wzh	2	16	both	50	object	object	1	1669.860
61	wzh	2	17	both	3	object	object	1	1419.423
61	wzh	2	18	unrelated	69	object	object	1	985.188
61	wzh	2	19	nonobject	39	nonobject	object	0	1185.734
61	wzh	2	20	both	45	object	object	1	1052.050
61	wzh	2	21	semantic	73	object	object	1	1519.610
61	wzh	2	22	both	64	object	nonobject	0	1502.903
61	wzh	2	23	semantic	61	object	nonobject	0	1319.286
61	wzh	2	24	nonobject	8	nonobject	nonobject	1	1536.305
61	wzh	2	25	nonobject	2	nonobject	object	0	2137.452
61	wzh	2	26	semantic	52	object	object	1	1219.033
61	wzh	2	27	nonobject	6	nonobject	object	0	1352.624
61	wzh	2	28	unrelated	70	object	object	1	1619.796
61	wzh	2	29	context	25	object	object	1	1269.121
61	wzh	2	30	nonobject	9	nonobject	nonobject	1	1068.748
61	wzh	2	31	nonobject	23	nonobject	object	0	2287.736
61	wzh	2	32	nonobject	29	nonobject	nonobject	1	985.251
61	wzh	2	33	unrelated	54	object	object	1	968.515
61	wzh	2	34	semantic	30	object	object	1	1035.345
61	wzh	2	35	both	40	object	object	1	734.803
61	wzh	2	36	both	44	object	object	1	667.981
61	wzh	2	37	context	26	object	object	1	768.169
61	wzh	2	38	nonobject	27	nonobject	nonobject	1	935.161
61	wzh	2	39	unrelated	46	object	object	1	1118.839
61	wzh	2	40	nonobject	21	nonobject	nonobject	1	885.088
61	wzh	2	41	context	14	object	object	1	818.238
61	wzh	2	42	context	60	object	object	1	768.166
61	wzh	2	43	nonobject	33	nonobject	object	0	1552.976
61	wzh	2	44	nonobject	18	nonobject	nonobject	1	885.113
61	wzh	2	45	nonobject	25	nonobject	nonobject	1	901.766
61	wzh	2	46	unrelated	2	object	object	1	1018.664
61	wzh	2	47	context	67	object	object	1	935.165
61	wzh	2	48	nonobject	34	nonobject	nonobject	1	1001.944
61	wzh	2	49	nonobject	13	nonobject	nonobject	1	835.065
61	wzh	2	50	semantic	18	object	object	1	851.628
61	wzh	2	51	context	27	object	object	1	851.668
61	wzh	2	52	nonobject	14	nonobject	object	0	1018.648
61	wzh	2	53	nonobject	15	nonobject	nonobject	1	1018.651
61	wzh	2	54	semantic	78	object	object	1	935.127
61	wzh	2	55	nonobject	7	nonobject	object	0	1586.422
61	wzh	2	56	both	48	object	object	1	1836.877
61	wzh	2	57	unrelated	39	object	object	1	885.064
61	wzh	2	58	semantic	4	object	nonobject	0	1335.922
61	wzh	2	59	nonobject	38	nonobject	nonobject	1	1770.086
61	wzh	2	60	nonobject	20	nonobject	nonobject	1	751.532
61	wzh	2	61	both	36	object	nonobject	0	1786.790
61	wzh	2	62	unrelated	19	object	object	1	734.829
61	wzh	2	63	nonobject	31	nonobject	object	0	868.319
61	wzh	2	64	both	1	object	object	1	818.267
61	wzh	2	65	unrelated	38	object	object	1	818.318
61	wzh	2	66	both	79	object	object	1	668.080
61	wzh	2	67	context	5	object	object	1	734.884
61	wzh	2	68	nonobject	37	nonobject	nonobject	1	951.859
61	wzh	2	69	nonobject	22	nonobject	nonobject	1	718.122
61	wzh	2	70	context	47	object	object	1	1469.474
61	wzh	2	71	both	28	object	object	1	784.916
61	wzh	2	72	nonobject	32	nonobject	nonobject	1	818.245
61	wzh	2	73	nonobject	17	nonobject	nonobject	1	851.665
61	wzh	2	74	context	63	object	object	1	634.631
61	wzh	2	75	nonobject	26	nonobject	nonobject	1	734.749
61	wzh	2	76	nonobject	19	nonobject	nonobject	1	684.681
61	wzh	2	77	context	22	object	object	1	818.332
61	wzh	2	78	nonobject	4	nonobject	nonobject	1	734.749
61	wzh	2	79	nonobject	30	nonobject	nonobject	1	634.625
61	wzh	2	80	context	20	object	object	1	751.429
61	wzh	2	81	unrelated	43	object	object	1	834.965
61	wzh	2	82	nonobject	36	nonobject	nonobject	1	818.272
61	wzh	2	83	unrelated	51	object	object	1	768.230
61	wzh	2	84	unrelated	55	object	object	1	868.306
61	wzh	2	85	both	41	object	object	1	818.265
61	wzh	2	86	semantic	58	object	object	1	985.249
61	wzh	2	87	both	10	object	object	1	551.156
61	wzh	2	88	semantic	62	object	object	1	634.544
61	wzh	2	89	context	12	object	object	1	668.037
61	wzh	2	90	unrelated	29	object	object	1	701.467
61	wzh	2	91	both	53	object	object	1	701.380
61	wzh	2	92	semantic	33	object	object	1	718.123
61	wzh	2	93	nonobject	3	nonobject	object	0	851.743
61	wzh	2	94	semantic	15	object	object	1	684.678
61	wzh	2	95	both	11	object	object	1	484.299
61	wzh	2	96	semantic	8	object	object	1	534.389
61	wzh	2	97	semantic	76	object	object	1	634.587
61	wzh	2	98	unrelated	68	object	object	1	567.793
61	wzh	2	99	both	66	object	object	1	734.772
61	wzh	2	100	context	17	object	object	1	901.750
61	wzh	2	101	unrelated	42	object	object	1	751.471
61	wzh	2	102	unrelated	75	object	object	1	1001.951
61	wzh	2	103	context	34	object	object	1	901.759
61	wzh	2	104	semantic	35	object	object	1	534.389
61	wzh	2	105	unrelated	6	object	object	1	450.858
61	wzh	2	106	semantic	80	object	object	1	651.334
61	wzh	2	107	semantic	49	object	object	1	734.790
61	wzh	2	108	context	21	object	object	1	801.568
61	wzh	2	109	both	77	object	object	1	835.021
61	wzh	2	110	nonobject	5	nonobject	nonobject	1	801.676
61	wzh	2	111	both	37	object	object	1	551.098
61	wzh	2	112	context	31	object	object	1	935.219
61	wzh	2	113	nonobject	10	nonobject	object	0	734.747
61	wzh	2	114	unrelated	65	object	object	1	617.887
61	wzh	2	115	unrelated	7	object	object	1	768.241
61	wzh	2	116	nonobject	11	nonobject	object	0	500.954
61	wzh	2	117	nonobject	35	nonobject	object	0	617.947
61	wzh	2	118	semantic	74	object	object	1	718.002
61	wzh	2	119	both	23	object	object	1	734.848
61	wzh	2	120	nonobject	40	nonobject	nonobject	1	1018.620